"rt","responses","trial_type","trial_index","trial_index_global","time_elapsed","internal_chunk_id","subject_id","view_history","key_press","rt_stim1","answer","correct","stimulus_1","stimulus_2","key_press_stim1","environment"
"7877","{""What is your age? (numeric)"":""19"",""What is your gender? (\""Male\""/\""Female\"")"":""Female""}","survey-text","0","0","7881","0-0","342d56f9-afc5-40f0-a9c3-596a2dda8a67","","","","","","","","",""
"36592","","instructions","0","1","45480","0-0","342d56f9-afc5-40f0-a9c3-596a2dda8a67","[{""page_index"":0,""viewing_time"":36591}]","","","","","","","",""
"1158","","text","0","2","48026","0-0","342d56f9-afc5-40f0-a9c3-596a2dda8a67","","40","","","","","","",""
"1858","","same-different","0","3","59816","0-0","342d56f9-afc5-40f0-a9c3-596a2dda8a67","","67","8171","same","true","The square is above the plus.","<img src=""img/square.png""></img><br><br><br><img src=""img/plus.png""></img>","40","demo"
"1737","","same-different","1","4","67458","0-0","342d56f9-afc5-40f0-a9c3-596a2dda8a67","","78","4199","different","true","The star is below the square.","<img src=""img/star.png""></img><br><br><br><img src=""img/square.png""></img>","40","demo"
"1038","","same-different","2","5","73312","0-0","342d56f9-afc5-40f0-a9c3-596a2dda8a67","","67","3179","same","true","The square is not below the circle.","<img src=""img/square.png""></img><br><br><br><img src=""img/circle.png""></img>","40","demo"
"1791","","same-different","3","6","80201","0-0","342d56f9-afc5-40f0-a9c3-596a2dda8a67","","78","3366","different","true","The plus is not above the star.","<img src=""img/plus.png""></img><br><br><br><img src=""img/star.png""></img>","40","demo"
"5886","","text","0","7","87225","0-0","342d56f9-afc5-40f0-a9c3-596a2dda8a67","","40","","","","","","",""
"1857","","same-different","0","8","96451","0-0","342d56f9-afc5-40f0-a9c3-596a2dda8a67","","78","5615","different","true","The plus is not above the star.","<img src=""img/plus.png""></img><br><br><br><img src=""img/star.png""></img>","40","real"
"966","","same-different","1","9","101163","0-0","342d56f9-afc5-40f0-a9c3-596a2dda8a67","","67","2010","same","true","The star is above the plus.","<img src=""img/star.png""></img><br><br><br><img src=""img/plus.png""></img>","40","real"
"1057","","same-different","2","10","108742","0-0","342d56f9-afc5-40f0-a9c3-596a2dda8a67","","78","4781","different","true","The square is above the plus.","<img src=""img/plus.png""></img><br><br><br><img src=""img/square.png""></img>","40","real"
"2927","","same-different","3","11","115725","0-0","342d56f9-afc5-40f0-a9c3-596a2dda8a67","","78","2133","different","true","The square is above the plus.","<img src=""img/plus.png""></img><br><br><br><img src=""img/square.png""></img>","40","real"
"1567","","same-different","4","12","123664","0-0","342d56f9-afc5-40f0-a9c3-596a2dda8a67","","78","4638","different","true","The square is below the star.","<img src=""img/square.png""></img><br><br><br><img src=""img/star.png""></img>","40","real"
"998","","same-different","5","13","129430","0-0","342d56f9-afc5-40f0-a9c3-596a2dda8a67","","67","3036","same","true","The star is not below the circle.","<img src=""img/star.png""></img><br><br><br><img src=""img/circle.png""></img>","40","real"
"816","","same-different","6","14","134733","0-0","342d56f9-afc5-40f0-a9c3-596a2dda8a67","","67","2738","same","true","The square is below the plus.","<img src=""img/plus.png""></img><br><br><br><img src=""img/square.png""></img>","40","real"
"1058","","same-different","7","15","140490","0-0","342d56f9-afc5-40f0-a9c3-596a2dda8a67","","67","2996","same","true","The star is above the plus.","<img src=""img/star.png""></img><br><br><br><img src=""img/plus.png""></img>","40","real"
"1204","","same-different","8","16","147151","0-0","342d56f9-afc5-40f0-a9c3-596a2dda8a67","","78","3748","different","true","The plus is not below the circle.","<img src=""img/circle.png""></img><br><br><br><img src=""img/plus.png""></img>","40","real"
"991","","same-different","9","17","155711","0-0","342d56f9-afc5-40f0-a9c3-596a2dda8a67","","78","5806","different","true","The plus is not below the circle.","<img src=""img/circle.png""></img><br><br><br><img src=""img/plus.png""></img>","40","real"
"1226","","same-different","10","18","164474","0-0","342d56f9-afc5-40f0-a9c3-596a2dda8a67","","78","5801","different","true","The plus is not above the star.","<img src=""img/plus.png""></img><br><br><br><img src=""img/star.png""></img>","40","real"
"1026","","same-different","11","19","178860","0-0","342d56f9-afc5-40f0-a9c3-596a2dda8a67","","67","11655","same","true","The star is not above the circle.","<img src=""img/circle.png""></img><br><br><br><img src=""img/star.png""></img>","40","real"
"2426","","same-different","12","20","186570","0-0","342d56f9-afc5-40f0-a9c3-596a2dda8a67","","67","3571","same","true","The star is not above the circle.","<img src=""img/circle.png""></img><br><br><br><img src=""img/star.png""></img>","40","real"
"3934","","same-different","13","21","200550","0-0","342d56f9-afc5-40f0-a9c3-596a2dda8a67","","78","8361","different","true","The square is below the star.","<img src=""img/square.png""></img><br><br><br><img src=""img/star.png""></img>","40","real"
"1542","","same-different","14","22","208427","0-0","342d56f9-afc5-40f0-a9c3-596a2dda8a67","","67","4642","same","true","The square is below the plus.","<img src=""img/plus.png""></img><br><br><br><img src=""img/square.png""></img>","40","real"
"1185","","same-different","15","23","214627","0-0","342d56f9-afc5-40f0-a9c3-596a2dda8a67","","67","3310","same","true","The star is not below the circle.","<img src=""img/star.png""></img><br><br><br><img src=""img/circle.png""></img>","40","real"
"17436","{""What is your age? (numeric)"":""22"",""What is your gender? (\""Male\""/\""Female\"")"":""Male""}","survey-text","0","0","17452","0-0","58a0d85e-7698-4bb7-9e50-492d410d36b0","","","","","","","","",""
"26713","","instructions","0","1","45180","0-0","58a0d85e-7698-4bb7-9e50-492d410d36b0","[{""page_index"":0,""viewing_time"":26711}]","","","","","","","",""
"2930","","text","0","2","49240","0-0","58a0d85e-7698-4bb7-9e50-492d410d36b0","","32","","","","","","",""
"1482","","same-different","0","3","63254","0-0","58a0d85e-7698-4bb7-9e50-492d410d36b0","","67","10789","same","true","The square is above the plus.","<img src=""img/square.png""></img><br><br><br><img src=""img/plus.png""></img>","32","demo"
"1026","","same-different","1","4","67616","0-0","58a0d85e-7698-4bb7-9e50-492d410d36b0","","78","1562","different","true","The star is below the square.","<img src=""img/star.png""></img><br><br><br><img src=""img/square.png""></img>","32","demo"
"1002","","same-different","2","5","75061","0-0","58a0d85e-7698-4bb7-9e50-492d410d36b0","","67","4657","same","true","The square is not below the circle.","<img src=""img/square.png""></img><br><br><br><img src=""img/circle.png""></img>","32","demo"
"1227","","same-different","3","6","80249","0-0","58a0d85e-7698-4bb7-9e50-492d410d36b0","","78","2172","different","true","The plus is not above the star.","<img src=""img/plus.png""></img><br><br><br><img src=""img/star.png""></img>","32","demo"
"5163","","text","0","7","86577","0-0","58a0d85e-7698-4bb7-9e50-492d410d36b0","","32","","","","","","",""
"869","","same-different","0","8","92552","0-0","58a0d85e-7698-4bb7-9e50-492d410d36b0","","67","3368","same","true","The square is above the star.","<img src=""img/square.png""></img><br><br><br><img src=""img/star.png""></img>","32","real"
"427","","same-different","1","9","98144","0-0","58a0d85e-7698-4bb7-9e50-492d410d36b0","","67","3441","same","true","The plus is not below the star.","<img src=""img/plus.png""></img><br><br><br><img src=""img/star.png""></img>","32","real"
"1032","","same-different","2","10","102870","0-0","58a0d85e-7698-4bb7-9e50-492d410d36b0","","67","1949","same","true","The plus is below the star.","<img src=""img/star.png""></img><br><br><br><img src=""img/plus.png""></img>","32","real"
"616","","same-different","3","11","107422","0-0","58a0d85e-7698-4bb7-9e50-492d410d36b0","","78","2151","different","true","The plus is above the circle.","<img src=""img/circle.png""></img><br><br><br><img src=""img/plus.png""></img>","32","real"
"1814","","same-different","4","12","114812","0-0","58a0d85e-7698-4bb7-9e50-492d410d36b0","","78","3789","different","true","The circle is not above the square.","<img src=""img/circle.png""></img><br><br><br><img src=""img/square.png""></img>","32","real"
"923","","same-different","5","13","119553","0-0","58a0d85e-7698-4bb7-9e50-492d410d36b0","","78","2107","different","true","The square is below the plus.","<img src=""img/square.png""></img><br><br><br><img src=""img/plus.png""></img>","32","real"
"668","","same-different","6","14","125577","0-0","58a0d85e-7698-4bb7-9e50-492d410d36b0","","67","3560","same","true","The star is not above the square.","<img src=""img/square.png""></img><br><br><br><img src=""img/star.png""></img>","32","real"
"804","","same-different","7","15","129449","0-0","58a0d85e-7698-4bb7-9e50-492d410d36b0","","67","1291","same","true","The square is above the star.","<img src=""img/square.png""></img><br><br><br><img src=""img/star.png""></img>","32","real"
"1858","","same-different","8","16","135393","0-0","58a0d85e-7698-4bb7-9e50-492d410d36b0","","78","2351","different","true","The circle is not above the square.","<img src=""img/circle.png""></img><br><br><br><img src=""img/square.png""></img>","32","real"
"1181","","same-different","9","17","139513","0-0","58a0d85e-7698-4bb7-9e50-492d410d36b0","","78","1199","different","true","The square is below the plus.","<img src=""img/square.png""></img><br><br><br><img src=""img/plus.png""></img>","32","real"
"846","","same-different","10","18","154978","0-0","58a0d85e-7698-4bb7-9e50-492d410d36b0","","78","12873","different","true","The plus is not below the star.","<img src=""img/star.png""></img><br><br><br><img src=""img/plus.png""></img>","32","real"
"650","","same-different","11","19","162066","0-0","58a0d85e-7698-4bb7-9e50-492d410d36b0","","67","4690","same","true","The plus is not below the star.","<img src=""img/plus.png""></img><br><br><br><img src=""img/star.png""></img>","32","real"
"813","","same-different","12","20","165786","0-0","58a0d85e-7698-4bb7-9e50-492d410d36b0","","67","1169","same","true","The plus is below the star.","<img src=""img/star.png""></img><br><br><br><img src=""img/plus.png""></img>","32","real"
"1025","","same-different","13","21","172714","0-0","58a0d85e-7698-4bb7-9e50-492d410d36b0","","78","4128","different","true","The plus is not below the star.","<img src=""img/star.png""></img><br><br><br><img src=""img/plus.png""></img>","32","real"
"962","","same-different","14","22","176410","0-0","58a0d85e-7698-4bb7-9e50-492d410d36b0","","78","994","different","true","The plus is above the circle.","<img src=""img/circle.png""></img><br><br><br><img src=""img/plus.png""></img>","32","real"
"384","","same-different","15","23","181660","0-0","58a0d85e-7698-4bb7-9e50-492d410d36b0","","67","3145","same","true","The star is not above the square.","<img src=""img/square.png""></img><br><br><br><img src=""img/star.png""></img>","32","real"
"6738","{""What is your age? (numeric)"":""23"",""What is your gender? (\""Male\""/\""Female\"")"":""Female""}","survey-text","0","0","6754","0-0","6fc0197a-05b5-43c7-94f3-d3cc65554497","","","","","","","","",""
"6708","","instructions","0","1","14484","0-0","6fc0197a-05b5-43c7-94f3-d3cc65554497","[{""page_index"":0,""viewing_time"":6708}]","","","","","","","",""
"5895","","text","0","2","21458","0-0","6fc0197a-05b5-43c7-94f3-d3cc65554497","","86","","","","","","",""
"3795","","same-different","0","3","37851","0-0","6fc0197a-05b5-43c7-94f3-d3cc65554497","","67","10872","same","true","The square is above the plus.","<img src=""img/square.png""></img><br><br><br><img src=""img/plus.png""></img>","86","demo"
"3298","","same-different","1","4","46171","0-0","6fc0197a-05b5-43c7-94f3-d3cc65554497","","78","3271","different","true","The star is below the square.","<img src=""img/star.png""></img><br><br><br><img src=""img/square.png""></img>","86","demo"
"1531","","same-different","2","5","55537","0-0","6fc0197a-05b5-43c7-94f3-d3cc65554497","","67","6101","same","true","The square is not below the circle.","<img src=""img/square.png""></img><br><br><br><img src=""img/circle.png""></img>","86","demo"
"8336","","same-different","3","6","69645","0-0","6fc0197a-05b5-43c7-94f3-d3cc65554497","","67","4066","different","false","The plus is not above the star.","<img src=""img/plus.png""></img><br><br><br><img src=""img/star.png""></img>","86","demo"
"5348","","text","0","7","76120","0-0","6fc0197a-05b5-43c7-94f3-d3cc65554497","","86","","","","","","",""
"1800","","same-different","0","8","87875","0-0","6fc0197a-05b5-43c7-94f3-d3cc65554497","","78","8189","different","true","The plus is not below the star.","<img src=""img/star.png""></img><br><br><br><img src=""img/plus.png""></img>","86","real"
"4282","","same-different","1","9","98029","0-0","6fc0197a-05b5-43c7-94f3-d3cc65554497","","78","4131","different","true","The square is below the star.","<img src=""img/square.png""></img><br><br><br><img src=""img/star.png""></img>","86","real"
"1871","","same-different","2","10","113139","0-0","6fc0197a-05b5-43c7-94f3-d3cc65554497","","67","11386","same","true","The circle is below the plus.","<img src=""img/plus.png""></img><br><br><br><img src=""img/circle.png""></img>","86","real"
"13269","","same-different","3","11","132469","0-0","6fc0197a-05b5-43c7-94f3-d3cc65554497","","67","4330","same","true","The circle is not below the square.","<img src=""img/circle.png""></img><br><br><br><img src=""img/square.png""></img>","86","real"
"2424","","same-different","4","12","139198","0-0","6fc0197a-05b5-43c7-94f3-d3cc65554497","","67","2619","same","true","The plus is not above the circle.","<img src=""img/circle.png""></img><br><br><br><img src=""img/plus.png""></img>","86","real"
"1883","","same-different","5","13","145086","0-0","6fc0197a-05b5-43c7-94f3-d3cc65554497","","78","2294","different","true","The square is below the star.","<img src=""img/square.png""></img><br><br><br><img src=""img/star.png""></img>","86","real"
"1384","","same-different","6","14","152566","0-0","6fc0197a-05b5-43c7-94f3-d3cc65554497","","67","4377","same","true","The plus is not above the circle.","<img src=""img/circle.png""></img><br><br><br><img src=""img/plus.png""></img>","86","real"
"935","","same-different","7","15","159975","0-0","6fc0197a-05b5-43c7-94f3-d3cc65554497","","67","4754","same","true","The circle is above the square.","<img src=""img/circle.png""></img><br><br><br><img src=""img/square.png""></img>","86","real"
"1218","","same-different","8","16","164763","0-0","6fc0197a-05b5-43c7-94f3-d3cc65554497","","67","1853","same","true","The circle is above the square.","<img src=""img/circle.png""></img><br><br><br><img src=""img/square.png""></img>","86","real"
"2001","","same-different","9","17","171264","0-0","6fc0197a-05b5-43c7-94f3-d3cc65554497","","78","2772","different","true","The square is above the circle.","<img src=""img/circle.png""></img><br><br><br><img src=""img/square.png""></img>","86","real"
"1818","","same-different","10","18","178346","0-0","6fc0197a-05b5-43c7-94f3-d3cc65554497","","78","3513","different","true","The square is above the circle.","<img src=""img/circle.png""></img><br><br><br><img src=""img/square.png""></img>","86","real"
"1676","","same-different","11","19","189290","0-0","6fc0197a-05b5-43c7-94f3-d3cc65554497","","78","7551","different","true","The star is not above the circle.","<img src=""img/star.png""></img><br><br><br><img src=""img/circle.png""></img>","86","real"
"2252","","same-different","12","20","195571","0-0","6fc0197a-05b5-43c7-94f3-d3cc65554497","","78","2308","same","false","The circle is below the plus.","<img src=""img/plus.png""></img><br><br><br><img src=""img/circle.png""></img>","86","real"
"1878","","same-different","13","21","201710","0-0","6fc0197a-05b5-43c7-94f3-d3cc65554497","","67","2513","same","true","The circle is not below the square.","<img src=""img/circle.png""></img><br><br><br><img src=""img/square.png""></img>","86","real"
"1777","","same-different","14","22","222276","0-0","6fc0197a-05b5-43c7-94f3-d3cc65554497","","78","17051","different","true","The star is not above the circle.","<img src=""img/star.png""></img><br><br><br><img src=""img/circle.png""></img>","86","real"
"2488","","same-different","15","23","229828","0-0","6fc0197a-05b5-43c7-94f3-d3cc65554497","","78","3350","different","true","The plus is not below the star.","<img src=""img/star.png""></img><br><br><br><img src=""img/plus.png""></img>","86","real"
"12480","{""What is your age? (numeric)"":""53"",""What is your gender? (\""Male\""/\""Female\"")"":""Male""}","survey-text","0","0","12487","0-0","70a4d4b7-415b-4727-b859-cc60b6a48e50","","","","","","","","",""
"26731","","instructions","0","1","40222","0-0","70a4d4b7-415b-4727-b859-cc60b6a48e50","[{""page_index"":0,""viewing_time"":26730}]","","","","","","","",""
"3781","","text","0","2","45138","0-0","70a4d4b7-415b-4727-b859-cc60b6a48e50","","32","","","","","","",""
"2396","","same-different","0","3","56787","0-0","70a4d4b7-415b-4727-b859-cc60b6a48e50","","67","7511","same","true","The square is above the plus.","<img src=""img/square.png""></img><br><br><br><img src=""img/plus.png""></img>","32","demo"
"2621","","same-different","1","4","63627","0-0","70a4d4b7-415b-4727-b859-cc60b6a48e50","","78","2465","different","true","The star is below the square.","<img src=""img/star.png""></img><br><br><br><img src=""img/square.png""></img>","32","demo"
"3237","","same-different","2","5","71539","0-0","70a4d4b7-415b-4727-b859-cc60b6a48e50","","78","2936","same","false","The square is not below the circle.","<img src=""img/square.png""></img><br><br><br><img src=""img/circle.png""></img>","32","demo"
"1869","","same-different","3","6","78123","0-0","70a4d4b7-415b-4727-b859-cc60b6a48e50","","78","2976","different","true","The plus is not above the star.","<img src=""img/plus.png""></img><br><br><br><img src=""img/star.png""></img>","32","demo"
"2512","","text","0","7","81756","0-0","70a4d4b7-415b-4727-b859-cc60b6a48e50","","32","","","","","","",""
"1363","","same-different","0","8","86964","0-0","70a4d4b7-415b-4727-b859-cc60b6a48e50","","67","2063","same","true","The plus is above the circle.","<img src=""img/plus.png""></img><br><br><br><img src=""img/circle.png""></img>","32","real"
"2829","","same-different","1","9","93732","0-0","70a4d4b7-415b-4727-b859-cc60b6a48e50","","78","2199","different","true","The circle is not below the square.","<img src=""img/square.png""></img><br><br><br><img src=""img/circle.png""></img>","32","real"
"2005","","same-different","2","10","99892","0-0","70a4d4b7-415b-4727-b859-cc60b6a48e50","","78","2393","different","true","The plus is below the star.","<img src=""img/plus.png""></img><br><br><br><img src=""img/star.png""></img>","32","real"
"2252","","same-different","3","11","106404","0-0","70a4d4b7-415b-4727-b859-cc60b6a48e50","","67","2519","different","false","The star is not above the plus.","<img src=""img/star.png""></img><br><br><br><img src=""img/plus.png""></img>","32","real"
"3612","","same-different","4","12","113357","0-0","70a4d4b7-415b-4727-b859-cc60b6a48e50","","67","1584","same","true","The square is not below the circle.","<img src=""img/square.png""></img><br><br><br><img src=""img/circle.png""></img>","32","real"
"1821","","same-different","5","13","119077","0-0","70a4d4b7-415b-4727-b859-cc60b6a48e50","","78","2168","different","true","The circle is not below the square.","<img src=""img/square.png""></img><br><br><br><img src=""img/circle.png""></img>","32","real"
"3012","","same-different","6","14","125997","0-0","70a4d4b7-415b-4727-b859-cc60b6a48e50","","67","2128","same","true","The circle is below the plus.","<img src=""img/plus.png""></img><br><br><br><img src=""img/circle.png""></img>","32","real"
"1532","","same-different","7","15","132686","0-0","70a4d4b7-415b-4727-b859-cc60b6a48e50","","78","3423","different","true","The star is not above the plus.","<img src=""img/star.png""></img><br><br><br><img src=""img/plus.png""></img>","32","real"
"1677","","same-different","8","16","138254","0-0","70a4d4b7-415b-4727-b859-cc60b6a48e50","","78","2177","different","true","The plus is below the star.","<img src=""img/plus.png""></img><br><br><br><img src=""img/star.png""></img>","32","real"
"1645","","same-different","9","17","142894","0-0","70a4d4b7-415b-4727-b859-cc60b6a48e50","","78","1248","different","true","The plus is above the square.","<img src=""img/square.png""></img><br><br><br><img src=""img/plus.png""></img>","32","real"
"1068","","same-different","10","18","148519","0-0","70a4d4b7-415b-4727-b859-cc60b6a48e50","","78","2800","different","true","The plus is above the square.","<img src=""img/square.png""></img><br><br><br><img src=""img/plus.png""></img>","32","real"
"1630","","same-different","11","19","154279","0-0","70a4d4b7-415b-4727-b859-cc60b6a48e50","","67","2383","same","true","The plus is above the circle.","<img src=""img/plus.png""></img><br><br><br><img src=""img/circle.png""></img>","32","real"
"1733","","same-different","12","20","161319","0-0","70a4d4b7-415b-4727-b859-cc60b6a48e50","","67","3544","same","true","The square is not above the circle.","<img src=""img/circle.png""></img><br><br><br><img src=""img/square.png""></img>","32","real"
"1885","","same-different","13","21","167503","0-0","70a4d4b7-415b-4727-b859-cc60b6a48e50","","67","2529","same","true","The square is not below the circle.","<img src=""img/square.png""></img><br><br><br><img src=""img/circle.png""></img>","32","real"
"1541","","same-different","14","22","174608","0-0","70a4d4b7-415b-4727-b859-cc60b6a48e50","","67","3824","same","true","The circle is below the plus.","<img src=""img/plus.png""></img><br><br><br><img src=""img/circle.png""></img>","32","real"
"2012","","same-different","15","23","180608","0-0","70a4d4b7-415b-4727-b859-cc60b6a48e50","","67","2232","same","true","The square is not above the circle.","<img src=""img/circle.png""></img><br><br><br><img src=""img/square.png""></img>","32","real"
"75067","{""What is your age? (numeric)"":""21"",""What is your gender? (\""Male\""/\""Female\"")"":""Female""}","survey-text","0","0","75087","0-0","9998f845-e913-45a6-9b70-ad4ebb1f9512","","","","","","","","",""
"40887","","instructions","0","1","116982","0-0","9998f845-e913-45a6-9b70-ad4ebb1f9512","[{""page_index"":0,""viewing_time"":40885}]","","","","","","","",""
"5362","","text","0","2","123423","0-0","9998f845-e913-45a6-9b70-ad4ebb1f9512","","67","","","","","","",""
"1315","","same-different","0","3","131371","0-0","9998f845-e913-45a6-9b70-ad4ebb1f9512","","67","4917","same","true","The square is above the plus.","<img src=""img/square.png""></img><br><br><br><img src=""img/plus.png""></img>","67","demo"
"1230","","same-different","1","4","135675","0-0","9998f845-e913-45a6-9b70-ad4ebb1f9512","","78","1290","different","true","The star is below the square.","<img src=""img/star.png""></img><br><br><br><img src=""img/square.png""></img>","78","demo"
"2720","","same-different","2","5","144334","0-0","9998f845-e913-45a6-9b70-ad4ebb1f9512","","67","4200","same","true","The square is not below the circle.","<img src=""img/square.png""></img><br><br><br><img src=""img/circle.png""></img>","67","demo"
"2472","","same-different","3","6","150232","0-0","9998f845-e913-45a6-9b70-ad4ebb1f9512","","78","1684","different","true","The plus is not above the star.","<img src=""img/plus.png""></img><br><br><br><img src=""img/star.png""></img>","67","demo"
"3950","","text","0","7","155267","0-0","9998f845-e913-45a6-9b70-ad4ebb1f9512","","78","","","","","","",""
"1339","","same-different","0","8","159607","0-0","9998f845-e913-45a6-9b70-ad4ebb1f9512","","78","1304","different","true","The star is below the circle.","<img src=""img/star.png""></img><br><br><br><img src=""img/circle.png""></img>","78","real"
"2594","","same-different","1","9","165340","0-0","9998f845-e913-45a6-9b70-ad4ebb1f9512","","78","1410","different","true","The plus is not above the square.","<img src=""img/plus.png""></img><br><br><br><img src=""img/square.png""></img>","78","real"
"1161","","same-different","2","10","169283","0-0","9998f845-e913-45a6-9b70-ad4ebb1f9512","","67","991","same","true","The plus is above the circle.","<img src=""img/plus.png""></img><br><br><br><img src=""img/circle.png""></img>","78","real"
"2489","","same-different","3","11","175161","0-0","9998f845-e913-45a6-9b70-ad4ebb1f9512","","67","1645","same","true","The circle is below the square.","<img src=""img/square.png""></img><br><br><br><img src=""img/circle.png""></img>","67","real"
"2345","","same-different","4","12","180611","0-0","9998f845-e913-45a6-9b70-ad4ebb1f9512","","78","1342","different","true","The star is below the circle.","<img src=""img/star.png""></img><br><br><br><img src=""img/circle.png""></img>","67","real"
"1332","","same-different","5","13","187714","0-0","9998f845-e913-45a6-9b70-ad4ebb1f9512","","67","4003","same","true","The plus is not above the circle.","<img src=""img/circle.png""></img><br><br><br><img src=""img/plus.png""></img>","78","real"
"2346","","same-different","6","14","196130","0-0","9998f845-e913-45a6-9b70-ad4ebb1f9512","","67","4309","same","true","The star is not below the square.","<img src=""img/star.png""></img><br><br><br><img src=""img/square.png""></img>","67","real"
"3305","","same-different","7","15","203808","0-0","9998f845-e913-45a6-9b70-ad4ebb1f9512","","78","2664","different","true","The circle is not below the plus.","<img src=""img/plus.png""></img><br><br><br><img src=""img/circle.png""></img>","78","real"
"2163","","same-different","8","16","208637","0-0","9998f845-e913-45a6-9b70-ad4ebb1f9512","","67","954","same","true","The plus is not above the circle.","<img src=""img/circle.png""></img><br><br><br><img src=""img/plus.png""></img>","78","real"
"1644","","same-different","9","17","212865","0-0","9998f845-e913-45a6-9b70-ad4ebb1f9512","","78","836","different","true","The square is above the star.","<img src=""img/star.png""></img><br><br><br><img src=""img/square.png""></img>","67","real"
"1483","","same-different","10","18","226215","0-0","9998f845-e913-45a6-9b70-ad4ebb1f9512","","78","10163","different","true","The plus is not above the square.","<img src=""img/plus.png""></img><br><br><br><img src=""img/square.png""></img>","78","real"
"1969","","same-different","11","19","233904","0-0","9998f845-e913-45a6-9b70-ad4ebb1f9512","","67","4044","same","true","The circle is below the square.","<img src=""img/square.png""></img><br><br><br><img src=""img/circle.png""></img>","78","real"
"2254","","same-different","12","20","238969","0-0","9998f845-e913-45a6-9b70-ad4ebb1f9512","","78","1075","different","true","The circle is not below the plus.","<img src=""img/plus.png""></img><br><br><br><img src=""img/circle.png""></img>","67","real"
"1375","","same-different","13","21","243652","0-0","9998f845-e913-45a6-9b70-ad4ebb1f9512","","67","1558","same","true","The star is not below the square.","<img src=""img/star.png""></img><br><br><br><img src=""img/square.png""></img>","78","real"
"891","","same-different","14","22","252303","0-0","9998f845-e913-45a6-9b70-ad4ebb1f9512","","67","5962","same","true","The plus is above the circle.","<img src=""img/plus.png""></img><br><br><br><img src=""img/circle.png""></img>","67","real"
"1294","","same-different","15","23","256729","0-0","9998f845-e913-45a6-9b70-ad4ebb1f9512","","78","1386","different","true","The square is above the star.","<img src=""img/star.png""></img><br><br><br><img src=""img/square.png""></img>","67","real"
"16838","{""What is your age? (numeric)"":""19"",""What is your gender? (\""Male\""/\""Female\"")"":""Female""}","survey-text","0","0","16853","0-0","9bf1d07a-06ee-481c-a8fc-df5f707b2863","","","","","","","","",""
"34282","","instructions","0","1","52140","0-0","9bf1d07a-06ee-481c-a8fc-df5f707b2863","[{""page_index"":0,""viewing_time"":34279}]","","","","","","","",""
"3567","","text","0","2","56749","0-0","9bf1d07a-06ee-481c-a8fc-df5f707b2863","","72","","","","","","",""
"8660","","same-different","0","3","74439","0-0","9bf1d07a-06ee-481c-a8fc-df5f707b2863","","67","7191","same","true","The square is above the plus.","<img src=""img/square.png""></img><br><br><br><img src=""img/plus.png""></img>","67","demo"
"4361","","same-different","1","4","84922","0-0","9bf1d07a-06ee-481c-a8fc-df5f707b2863","","78","4307","different","true","The star is below the square.","<img src=""img/star.png""></img><br><br><br><img src=""img/square.png""></img>","72","demo"
"2589","","same-different","2","5","92544","0-0","9bf1d07a-06ee-481c-a8fc-df5f707b2863","","67","3193","same","true","The square is not below the circle.","<img src=""img/square.png""></img><br><br><br><img src=""img/circle.png""></img>","72","demo"
"2352","","same-different","3","6","98025","0-0","9bf1d07a-06ee-481c-a8fc-df5f707b2863","","78","1346","different","true","The plus is not above the star.","<img src=""img/plus.png""></img><br><br><br><img src=""img/star.png""></img>","70","demo"
"1541","","text","0","7","100643","0-0","9bf1d07a-06ee-481c-a8fc-df5f707b2863","","72","","","","","","",""
"30897","","same-different","0","8","135418","0-0","9bf1d07a-06ee-481c-a8fc-df5f707b2863","","67","2212","same","true","The circle is not above the plus.","<img src=""img/plus.png""></img><br><br><br><img src=""img/circle.png""></img>","72","real"
"4259","","same-different","1","9","144207","0-0","9bf1d07a-06ee-481c-a8fc-df5f707b2863","","67","2761","same","true","The circle is not above the plus.","<img src=""img/plus.png""></img><br><br><br><img src=""img/circle.png""></img>","72","real"
"2462","","same-different","2","10","149914","0-0","9bf1d07a-06ee-481c-a8fc-df5f707b2863","","78","1535","different","true","The star is not below the plus.","<img src=""img/plus.png""></img><br><br><br><img src=""img/star.png""></img>","71","real"
"2595","","same-different","3","11","156461","0-0","9bf1d07a-06ee-481c-a8fc-df5f707b2863","","78","2192","different","true","The star is above the circle.","<img src=""img/circle.png""></img><br><br><br><img src=""img/star.png""></img>","72","real"
"2655","","same-different","4","12","165140","0-0","9bf1d07a-06ee-481c-a8fc-df5f707b2863","","78","4231","different","true","The star is not below the plus.","<img src=""img/plus.png""></img><br><br><br><img src=""img/star.png""></img>","74","real"
"7993","","same-different","5","13","176603","0-0","9bf1d07a-06ee-481c-a8fc-df5f707b2863","","78","1775","different","true","The star is not above the circle.","<img src=""img/star.png""></img><br><br><br><img src=""img/circle.png""></img>","74","real"
"2233","","same-different","6","14","180979","0-0","9bf1d07a-06ee-481c-a8fc-df5f707b2863","","67","287","same","true","The star is below the circle.","<img src=""img/circle.png""></img><br><br><br><img src=""img/star.png""></img>","74","real"
"4007","","same-different","7","15","189077","0-0","9bf1d07a-06ee-481c-a8fc-df5f707b2863","","78","2189","different","true","The star is not above the circle.","<img src=""img/star.png""></img><br><br><br><img src=""img/circle.png""></img>","72","real"
"1083","","same-different","8","16","192830","0-0","9bf1d07a-06ee-481c-a8fc-df5f707b2863","","67","926","same","true","The star is above the circle.","<img src=""img/star.png""></img><br><br><br><img src=""img/circle.png""></img>","74","real"
"3119","","same-different","9","17","199995","0-0","9bf1d07a-06ee-481c-a8fc-df5f707b2863","","78","2186","different","true","The star is above the circle.","<img src=""img/circle.png""></img><br><br><br><img src=""img/star.png""></img>","72","real"
"3838","","same-different","10","18","207508","0-0","9bf1d07a-06ee-481c-a8fc-df5f707b2863","","78","1818","different","true","The square is below the plus.","<img src=""img/square.png""></img><br><br><br><img src=""img/plus.png""></img>","74","real"
"3148","","same-different","11","19","214541","0-0","9bf1d07a-06ee-481c-a8fc-df5f707b2863","","78","2117","different","true","The square is below the plus.","<img src=""img/square.png""></img><br><br><br><img src=""img/plus.png""></img>","74","real"
"3216","","same-different","12","20","222173","0-0","9bf1d07a-06ee-481c-a8fc-df5f707b2863","","67","2466","same","true","The plus is not below the square.","<img src=""img/plus.png""></img><br><br><br><img src=""img/square.png""></img>","74","real"
"1568","","same-different","13","21","226965","0-0","9bf1d07a-06ee-481c-a8fc-df5f707b2863","","67","1374","same","true","The star is below the circle.","<img src=""img/circle.png""></img><br><br><br><img src=""img/star.png""></img>","72","real"
"1952","","same-different","14","22","231633","0-0","9bf1d07a-06ee-481c-a8fc-df5f707b2863","","67","915","same","true","The star is above the circle.","<img src=""img/star.png""></img><br><br><br><img src=""img/circle.png""></img>","72","real"
"2965","","same-different","15","23","238057","0-0","9bf1d07a-06ee-481c-a8fc-df5f707b2863","","67","1725","same","true","The plus is not below the square.","<img src=""img/plus.png""></img><br><br><br><img src=""img/square.png""></img>","72","real"
"142487","{""What is your age? (numeric)"":""21"",""What is your gender? (\""Male\""/\""Female\"")"":""Female""}","survey-text","0","0","142500","0-0","a31fda75-0f09-4e94-8dc7-4b958ab01f5d","","","","","","","","",""
"30041","","instructions","0","1","173548","0-0","a31fda75-0f09-4e94-8dc7-4b958ab01f5d","[{""page_index"":0,""viewing_time"":30039}]","","","","","","","",""
"3609","","text","0","2","178270","0-0","a31fda75-0f09-4e94-8dc7-4b958ab01f5d","","32","","","","","","",""
"1826","","same-different","0","3","190150","0-0","a31fda75-0f09-4e94-8dc7-4b958ab01f5d","","67","8373","same","true","The square is above the plus.","<img src=""img/square.png""></img><br><br><br><img src=""img/plus.png""></img>","32","demo"
"2177","","same-different","1","4","197293","0-0","a31fda75-0f09-4e94-8dc7-4b958ab01f5d","","78","3164","different","true","The star is below the square.","<img src=""img/star.png""></img><br><br><br><img src=""img/square.png""></img>","32","demo"
"1267","","same-different","2","5","202997","0-0","a31fda75-0f09-4e94-8dc7-4b958ab01f5d","","67","2677","same","true","The square is not below the circle.","<img src=""img/square.png""></img><br><br><br><img src=""img/circle.png""></img>","32","demo"
"5601","","same-different","3","6","212669","0-0","a31fda75-0f09-4e94-8dc7-4b958ab01f5d","","78","2413","different","true","The plus is not above the star.","<img src=""img/plus.png""></img><br><br><br><img src=""img/star.png""></img>","32","demo"
"2232","","text","0","7","216062","0-0","a31fda75-0f09-4e94-8dc7-4b958ab01f5d","","32","","","","","","",""
"1402","","same-different","0","8","221093","0-0","a31fda75-0f09-4e94-8dc7-4b958ab01f5d","","78","1950","different","true","The circle is above the square.","<img src=""img/square.png""></img><br><br><br><img src=""img/circle.png""></img>","32","real"
"1129","","same-different","1","9","225645","0-0","a31fda75-0f09-4e94-8dc7-4b958ab01f5d","","67","1719","same","true","The circle is below the plus.","<img src=""img/plus.png""></img><br><br><br><img src=""img/circle.png""></img>","32","real"
"1555","","same-different","2","10","233704","0-0","a31fda75-0f09-4e94-8dc7-4b958ab01f5d","","67","4798","same","true","The square is not below the star.","<img src=""img/square.png""></img><br><br><br><img src=""img/star.png""></img>","32","real"
"2603","","same-different","3","11","241220","0-0","a31fda75-0f09-4e94-8dc7-4b958ab01f5d","","78","3193","different","true","The circle is not below the square.","<img src=""img/square.png""></img><br><br><br><img src=""img/circle.png""></img>","32","real"
"1220","","same-different","4","12","246005","0-0","a31fda75-0f09-4e94-8dc7-4b958ab01f5d","","67","1837","different","false","The star is not above the plus.","<img src=""img/star.png""></img><br><br><br><img src=""img/plus.png""></img>","32","real"
"1051","","same-different","5","13","250125","0-0","a31fda75-0f09-4e94-8dc7-4b958ab01f5d","","67","1350","same","true","The star is above the plus.","<img src=""img/star.png""></img><br><br><br><img src=""img/plus.png""></img>","32","real"
"3259","","same-different","6","14","262260","0-0","a31fda75-0f09-4e94-8dc7-4b958ab01f5d","","78","7215","same","false","The circle is not above the star.","<img src=""img/star.png""></img><br><br><br><img src=""img/circle.png""></img>","32","real"
"2697","","same-different","7","15","268332","0-0","a31fda75-0f09-4e94-8dc7-4b958ab01f5d","","67","1606","same","true","The circle is not above the star.","<img src=""img/star.png""></img><br><br><br><img src=""img/circle.png""></img>","32","real"
"2569","","same-different","8","16","274980","0-0","a31fda75-0f09-4e94-8dc7-4b958ab01f5d","","78","2334","different","true","The circle is above the square.","<img src=""img/square.png""></img><br><br><br><img src=""img/circle.png""></img>","32","real"
"3643","","same-different","9","17","282100","0-0","a31fda75-0f09-4e94-8dc7-4b958ab01f5d","","78","1629","different","true","The plus is below the star.","<img src=""img/plus.png""></img><br><br><br><img src=""img/star.png""></img>","32","real"
"3162","","same-different","10","18","294693","0-0","a31fda75-0f09-4e94-8dc7-4b958ab01f5d","","67","7614","same","true","The square is not below the star.","<img src=""img/square.png""></img><br><br><br><img src=""img/star.png""></img>","32","real"
"1721","","same-different","11","19","300508","0-0","a31fda75-0f09-4e94-8dc7-4b958ab01f5d","","78","2275","different","true","The circle is not below the square.","<img src=""img/square.png""></img><br><br><br><img src=""img/circle.png""></img>","32","real"
"5035","","same-different","12","20","309729","0-0","a31fda75-0f09-4e94-8dc7-4b958ab01f5d","","78","2308","different","true","The plus is below the star.","<img src=""img/plus.png""></img><br><br><br><img src=""img/star.png""></img>","32","real"
"2523","","same-different","13","21","323411","0-0","a31fda75-0f09-4e94-8dc7-4b958ab01f5d","","67","9447","same","true","The circle is below the plus.","<img src=""img/plus.png""></img><br><br><br><img src=""img/circle.png""></img>","32","real"
"3299","","same-different","14","22","332236","0-0","a31fda75-0f09-4e94-8dc7-4b958ab01f5d","","78","3581","different","true","The star is not above the plus.","<img src=""img/star.png""></img><br><br><br><img src=""img/plus.png""></img>","32","real"
"2324","","same-different","15","23","340891","0-0","a31fda75-0f09-4e94-8dc7-4b958ab01f5d","","67","4445","same","true","The star is above the plus.","<img src=""img/star.png""></img><br><br><br><img src=""img/plus.png""></img>","32","real"
"77688","{""What is your age? (numeric)"":""50"",""What is your gender? (\""Male\""/\""Female\"")"":""male""}","survey-text","0","0","77701","0-0","c5656654-ba45-4d66-8908-c90ef76aaa63","","","","","","","","",""
"89664","","instructions","0","1","168372","0-0","c5656654-ba45-4d66-8908-c90ef76aaa63","[{""page_index"":0,""viewing_time"":89662}]","","","","","","","",""
"10799","","text","0","2","180315","0-0","c5656654-ba45-4d66-8908-c90ef76aaa63","","88","","","","","","",""
"2744","","same-different","0","3","207426","0-0","c5656654-ba45-4d66-8908-c90ef76aaa63","","67","22609","same","true","The square is above the plus.","<img src=""img/square.png""></img><br><br><br><img src=""img/plus.png""></img>","88","demo"
"2315","","same-different","1","4","218647","0-0","c5656654-ba45-4d66-8908-c90ef76aaa63","","78","7221","different","true","The star is below the square.","<img src=""img/star.png""></img><br><br><br><img src=""img/square.png""></img>","32","demo"
"1742","","same-different","2","5","229356","0-0","c5656654-ba45-4d66-8908-c90ef76aaa63","","67","7320","same","true","The square is not below the circle.","<img src=""img/square.png""></img><br><br><br><img src=""img/circle.png""></img>","32","demo"
"2615","","same-different","3","6","241960","0-0","c5656654-ba45-4d66-8908-c90ef76aaa63","","78","8308","different","true","The plus is not above the star.","<img src=""img/plus.png""></img><br><br><br><img src=""img/star.png""></img>","32","demo"
"13889","","text","0","7","256920","0-0","c5656654-ba45-4d66-8908-c90ef76aaa63","","32","","","","","","",""
"2144","","same-different","0","8","265434","0-0","c5656654-ba45-4d66-8908-c90ef76aaa63","","78","4533","different","true","The star is not below the plus.","<img src=""img/plus.png""></img><br><br><br><img src=""img/star.png""></img>","32","real"
"1935","","same-different","1","9","275758","0-0","c5656654-ba45-4d66-8908-c90ef76aaa63","","78","6190","different","true","The star is below the square.","<img src=""img/star.png""></img><br><br><br><img src=""img/square.png""></img>","32","real"
"1474","","same-different","2","10","287258","0-0","c5656654-ba45-4d66-8908-c90ef76aaa63","","67","8377","same","true","The star is not below the circle.","<img src=""img/star.png""></img><br><br><br><img src=""img/circle.png""></img>","32","real"
"1581","","same-different","3","11","294991","0-0","c5656654-ba45-4d66-8908-c90ef76aaa63","","67","4505","same","true","The star is not above the square.","<img src=""img/square.png""></img><br><br><br><img src=""img/star.png""></img>","32","real"
"1721","","same-different","4","12","313640","0-0","c5656654-ba45-4d66-8908-c90ef76aaa63","","78","15246","different","true","The star is not above the plus.","<img src=""img/star.png""></img><br><br><br><img src=""img/plus.png""></img>","32","real"
"1142","","same-different","5","13","323154","0-0","c5656654-ba45-4d66-8908-c90ef76aaa63","","67","6728","same","true","The star is not above the square.","<img src=""img/square.png""></img><br><br><br><img src=""img/star.png""></img>","32","real"
"1496","","same-different","6","14","335187","0-0","c5656654-ba45-4d66-8908-c90ef76aaa63","","78","8857","different","true","The star is below the square.","<img src=""img/star.png""></img><br><br><br><img src=""img/square.png""></img>","32","real"
"1380","","same-different","7","15","345036","0-0","c5656654-ba45-4d66-8908-c90ef76aaa63","","67","6823","same","true","The star is not below the circle.","<img src=""img/star.png""></img><br><br><br><img src=""img/circle.png""></img>","32","real"
"1748","","same-different","8","16","353515","0-0","c5656654-ba45-4d66-8908-c90ef76aaa63","","78","5041","different","true","The star is not below the plus.","<img src=""img/plus.png""></img><br><br><br><img src=""img/star.png""></img>","32","real"
"1903","","same-different","9","17","369255","0-0","c5656654-ba45-4d66-8908-c90ef76aaa63","","78","12261","different","true","The star is not above the plus.","<img src=""img/star.png""></img><br><br><br><img src=""img/plus.png""></img>","32","real"
"1719","","same-different","10","18","382728","0-0","c5656654-ba45-4d66-8908-c90ef76aaa63","","67","10003","same","true","The circle is below the square.","<img src=""img/square.png""></img><br><br><br><img src=""img/circle.png""></img>","32","real"
"1355","","same-different","11","19","388567","0-0","c5656654-ba45-4d66-8908-c90ef76aaa63","","78","2765","different","true","The plus is above the star.","<img src=""img/star.png""></img><br><br><br><img src=""img/plus.png""></img>","32","real"
"1597","","same-different","12","20","395008","0-0","c5656654-ba45-4d66-8908-c90ef76aaa63","","78","3195","different","true","The plus is above the star.","<img src=""img/star.png""></img><br><br><br><img src=""img/plus.png""></img>","32","real"
"2433","","same-different","13","21","402577","0-0","c5656654-ba45-4d66-8908-c90ef76aaa63","","67","3453","same","true","The star is above the circle.","<img src=""img/star.png""></img><br><br><br><img src=""img/circle.png""></img>","32","real"
"2207","","same-different","14","22","411312","0-0","c5656654-ba45-4d66-8908-c90ef76aaa63","","67","4859","same","true","The star is above the circle.","<img src=""img/star.png""></img><br><br><br><img src=""img/circle.png""></img>","32","real"
"1669","","same-different","15","23","418139","0-0","c5656654-ba45-4d66-8908-c90ef76aaa63","","67","3491","same","true","The circle is below the square.","<img src=""img/square.png""></img><br><br><br><img src=""img/circle.png""></img>","32","real"
"61181","{""What is your age? (numeric)"":""null"",""What is your gender? (\""Male\""/\""Female\"")"":""null""}","survey-text","0","0","61210","0-0","cc63acf7-7b56-4b5c-91f2-b818547be6fa","","","","","","","","",""
"11514","","instructions","0","1","73779","0-0","cc63acf7-7b56-4b5c-91f2-b818547be6fa","[{""page_index"":0,""viewing_time"":11511}]","","","","","","","",""
"3254","","text","0","2","78154","0-0","cc63acf7-7b56-4b5c-91f2-b818547be6fa","","67","","","","","","",""
"3466","","same-different","0","3","87741","0-0","cc63acf7-7b56-4b5c-91f2-b818547be6fa","","67","4324","same","true","The square is above the plus.","<img src=""img/square.png""></img><br><br><br><img src=""img/plus.png""></img>","67","demo"
"13031","","same-different","1","4","111661","0-0","cc63acf7-7b56-4b5c-91f2-b818547be6fa","","67","4261","different","false","The star is below the square.","<img src=""img/star.png""></img><br><br><br><img src=""img/square.png""></img>","91","demo"
"670","","same-different","2","5","145598","0-0","cc63acf7-7b56-4b5c-91f2-b818547be6fa","","67","31524","same","true","The square is not below the circle.","<img src=""img/square.png""></img><br><br><br><img src=""img/circle.png""></img>","67","demo"
"39","","same-different","3","6","148287","0-0","cc63acf7-7b56-4b5c-91f2-b818547be6fa","","67","885","different","false","The plus is not above the star.","<img src=""img/plus.png""></img><br><br><br><img src=""img/star.png""></img>","67","demo"
"166","","text","0","7","149543","0-0","cc63acf7-7b56-4b5c-91f2-b818547be6fa","","67","","","","","","",""
"98","","same-different","0","8","151934","0-0","cc63acf7-7b56-4b5c-91f2-b818547be6fa","","67","619","different","false","The plus is below the square.","<img src=""img/plus.png""></img><br><br><br><img src=""img/square.png""></img>","67","real"
"8","","same-different","1","9","154294","0-0","cc63acf7-7b56-4b5c-91f2-b818547be6fa","","67","662","same","true","The square is below the circle.","<img src=""img/circle.png""></img><br><br><br><img src=""img/square.png""></img>","67","real"
"42","","same-different","2","10","156711","0-0","cc63acf7-7b56-4b5c-91f2-b818547be6fa","","67","734","different","false","The circle is not above the star.","<img src=""img/circle.png""></img><br><br><br><img src=""img/star.png""></img>","67","real"
"51","","same-different","3","11","158487","0-0","cc63acf7-7b56-4b5c-91f2-b818547be6fa","","67","77","same","true","The square is not below the star.","<img src=""img/square.png""></img><br><br><br><img src=""img/star.png""></img>","67","real"
"64","","same-different","4","12","160343","0-0","cc63acf7-7b56-4b5c-91f2-b818547be6fa","","67","138","different","false","The plus is below the square.","<img src=""img/plus.png""></img><br><br><br><img src=""img/square.png""></img>","67","real"
"33","","same-different","5","13","162047","0-0","cc63acf7-7b56-4b5c-91f2-b818547be6fa","","67","36","same","true","The circle is not above the plus.","<img src=""img/plus.png""></img><br><br><br><img src=""img/circle.png""></img>","67","real"
"3","","same-different","6","14","163767","0-0","cc63acf7-7b56-4b5c-91f2-b818547be6fa","","67","59","different","false","The plus is not below the circle.","<img src=""img/circle.png""></img><br><br><br><img src=""img/plus.png""></img>","67","real"
"160","","same-different","7","15","165639","0-0","cc63acf7-7b56-4b5c-91f2-b818547be6fa","","67","12","same","true","The square is not below the star.","<img src=""img/square.png""></img><br><br><br><img src=""img/star.png""></img>","67","real"
"335","","same-different","8","16","167719","0-0","cc63acf7-7b56-4b5c-91f2-b818547be6fa","","67","69","different","false","The plus is above the star.","<img src=""img/star.png""></img><br><br><br><img src=""img/plus.png""></img>","67","real"
"2096","","same-different","9","17","186336","0-0","cc63acf7-7b56-4b5c-91f2-b818547be6fa","","67","94","same","true","The circle is not above the plus.","<img src=""img/plus.png""></img><br><br><br><img src=""img/circle.png""></img>","17","real"
"38","","same-different","10","18","188480","0-0","cc63acf7-7b56-4b5c-91f2-b818547be6fa","","67","339","same","true","The circle is above the square.","<img src=""img/circle.png""></img><br><br><br><img src=""img/square.png""></img>","67","real"
"210","","same-different","11","19","190544","0-0","cc63acf7-7b56-4b5c-91f2-b818547be6fa","","67","172","different","false","The plus is above the star.","<img src=""img/star.png""></img><br><br><br><img src=""img/plus.png""></img>","67","real"
"77","","same-different","12","20","192416","0-0","cc63acf7-7b56-4b5c-91f2-b818547be6fa","","67","117","different","false","The plus is not below the circle.","<img src=""img/circle.png""></img><br><br><br><img src=""img/plus.png""></img>","67","real"
"322","","same-different","13","21","194472","0-0","cc63acf7-7b56-4b5c-91f2-b818547be6fa","","67","29","different","false","The circle is not above the star.","<img src=""img/circle.png""></img><br><br><br><img src=""img/star.png""></img>","67","real"
"438","","same-different","14","22","196817","0-0","cc63acf7-7b56-4b5c-91f2-b818547be6fa","","67","173","same","true","The circle is above the square.","<img src=""img/circle.png""></img><br><br><br><img src=""img/square.png""></img>","67","real"
"1154","","same-different","15","23","200136","0-0","cc63acf7-7b56-4b5c-91f2-b818547be6fa","","67","458","same","true","The square is below the circle.","<img src=""img/circle.png""></img><br><br><br><img src=""img/square.png""></img>","67","real"
"17267","{""What is your age? (numeric)"":""50"",""What is your gender? (\""Male\""/\""Female\"")"":""Female""}","survey-text","0","0","17290","0-0","d3ec717a-1368-4f54-98c5-bfe64bbf547a","","","","","","","","",""
"83744","","instructions","0","1","102044","0-0","d3ec717a-1368-4f54-98c5-bfe64bbf547a","[{""page_index"":0,""viewing_time"":83742}]","","","","","","","",""
"10918","","text","0","2","114054","0-0","d3ec717a-1368-4f54-98c5-bfe64bbf547a","","75","","","","","","",""
"4213","","same-different","0","3","132271","0-0","d3ec717a-1368-4f54-98c5-bfe64bbf547a","","67","12278","same","true","The square is above the plus.","<img src=""img/square.png""></img><br><br><br><img src=""img/plus.png""></img>","76","demo"
"2636","","same-different","1","4","144961","0-0","d3ec717a-1368-4f54-98c5-bfe64bbf547a","","78","8331","different","true","The star is below the square.","<img src=""img/star.png""></img><br><br><br><img src=""img/square.png""></img>","75","demo"
"3230","","same-different","2","5","155191","0-0","d3ec717a-1368-4f54-98c5-bfe64bbf547a","","67","5347","same","true","The square is not below the circle.","<img src=""img/square.png""></img><br><br><br><img src=""img/circle.png""></img>","75","demo"
"2296","","same-different","3","6","166456","0-0","d3ec717a-1368-4f54-98c5-bfe64bbf547a","","78","7255","different","true","The plus is not above the star.","<img src=""img/plus.png""></img><br><br><br><img src=""img/star.png""></img>","68","demo"
"2407","","text","0","7","169959","0-0","d3ec717a-1368-4f54-98c5-bfe64bbf547a","","68","","","","","","",""
"4292","","same-different","0","8","181936","0-0","d3ec717a-1368-4f54-98c5-bfe64bbf547a","","67","5970","same","true","The star is not below the circle.","<img src=""img/star.png""></img><br><br><br><img src=""img/circle.png""></img>","68","real"
"4083","","same-different","1","9","194557","0-0","d3ec717a-1368-4f54-98c5-bfe64bbf547a","","67","6869","same","true","The circle is below the star.","<img src=""img/star.png""></img><br><br><br><img src=""img/circle.png""></img>","68","real"
"7127","","same-different","2","10","212168","0-0","d3ec717a-1368-4f54-98c5-bfe64bbf547a","","67","8752","same","true","The plus is not above the square.","<img src=""img/square.png""></img><br><br><br><img src=""img/plus.png""></img>","68","real"
"6512","","same-different","3","11","225935","0-0","d3ec717a-1368-4f54-98c5-bfe64bbf547a","","78","5551","different","true","The circle is below the plus.","<img src=""img/circle.png""></img><br><br><br><img src=""img/plus.png""></img>","68","real"
"5172","","same-different","4","12","240158","0-0","d3ec717a-1368-4f54-98c5-bfe64bbf547a","","78","7340","different","true","The star is not below the plus.","<img src=""img/plus.png""></img><br><br><br><img src=""img/star.png""></img>","68","real"
"3343","","same-different","5","13","253682","0-0","d3ec717a-1368-4f54-98c5-bfe64bbf547a","","78","8459","different","true","The square is above the star.","<img src=""img/star.png""></img><br><br><br><img src=""img/square.png""></img>","68","real"
"1830","","same-different","6","14","260953","0-0","d3ec717a-1368-4f54-98c5-bfe64bbf547a","","78","3714","different","true","The circle is below the plus.","<img src=""img/circle.png""></img><br><br><br><img src=""img/plus.png""></img>","72","real"
"4302","","same-different","7","15","272560","0-0","d3ec717a-1368-4f54-98c5-bfe64bbf547a","","67","5618","same","true","The star is not below the circle.","<img src=""img/star.png""></img><br><br><br><img src=""img/circle.png""></img>","74","real"
"2300","","same-different","8","16","278839","0-0","d3ec717a-1368-4f54-98c5-bfe64bbf547a","","67","2323","same","true","The plus is above the star.","<img src=""img/plus.png""></img><br><br><br><img src=""img/star.png""></img>","72","real"
"3361","","same-different","9","17","286997","0-0","d3ec717a-1368-4f54-98c5-bfe64bbf547a","","78","3137","different","true","The square is above the star.","<img src=""img/star.png""></img><br><br><br><img src=""img/square.png""></img>","67","real"
"1684","","same-different","10","18","293256","0-0","d3ec717a-1368-4f54-98c5-bfe64bbf547a","","67","2896","same","true","The plus is above the star.","<img src=""img/plus.png""></img><br><br><br><img src=""img/star.png""></img>","70","real"
"5308","","same-different","11","19","303386","0-0","d3ec717a-1368-4f54-98c5-bfe64bbf547a","","78","3130","different","true","The plus is not above the star.","<img src=""img/plus.png""></img><br><br><br><img src=""img/star.png""></img>","70","real"
"3738","","same-different","12","20","313392","0-0","d3ec717a-1368-4f54-98c5-bfe64bbf547a","","78","4579","different","true","The plus is not above the star.","<img src=""img/plus.png""></img><br><br><br><img src=""img/star.png""></img>","72","real"
"1727","","same-different","13","21","320295","0-0","d3ec717a-1368-4f54-98c5-bfe64bbf547a","","67","3463","same","true","The circle is below the star.","<img src=""img/star.png""></img><br><br><br><img src=""img/circle.png""></img>","72","real"
"5054","","same-different","14","22","330856","0-0","d3ec717a-1368-4f54-98c5-bfe64bbf547a","","78","3838","different","true","The star is not below the plus.","<img src=""img/plus.png""></img><br><br><br><img src=""img/star.png""></img>","72","real"
"3762","","same-different","15","23","341725","0-0","d3ec717a-1368-4f54-98c5-bfe64bbf547a","","67","5408","same","true","The plus is not above the square.","<img src=""img/square.png""></img><br><br><br><img src=""img/plus.png""></img>","72","real"
"9607","{""What is your age? (numeric)"":""30"",""What is your gender? (\""Male\""/\""Female\"")"":""male""}","survey-text","0","0","9620","0-0","d9dd5f51-894f-46bc-b94e-801f7e2ec022","","","","","","","","",""
"87096","","instructions","0","1","97719","0-0","d9dd5f51-894f-46bc-b94e-801f7e2ec022","[{""page_index"":0,""viewing_time"":87092}]","","","","","","","",""
"6106","","text","0","2","104920","0-0","d9dd5f51-894f-46bc-b94e-801f7e2ec022","","78","","","","","","",""
"11499","","same-different","0","3","129827","0-0","d9dd5f51-894f-46bc-b94e-801f7e2ec022","","67","11681","same","true","The square is above the plus.","<img src=""img/square.png""></img><br><br><br><img src=""img/plus.png""></img>","32","demo"
"4318","","same-different","1","4","139010","0-0","d9dd5f51-894f-46bc-b94e-801f7e2ec022","","78","3123","different","true","The star is below the square.","<img src=""img/star.png""></img><br><br><br><img src=""img/square.png""></img>","32","demo"
"5695","","same-different","2","5","154816","0-0","d9dd5f51-894f-46bc-b94e-801f7e2ec022","","67","8411","same","true","The square is not below the circle.","<img src=""img/square.png""></img><br><br><br><img src=""img/circle.png""></img>","32","demo"
"4460","","same-different","3","6","168810","0-0","d9dd5f51-894f-46bc-b94e-801f7e2ec022","","78","7831","different","true","The plus is not above the star.","<img src=""img/plus.png""></img><br><br><br><img src=""img/star.png""></img>","32","demo"
"9390","","text","0","7","179283","0-0","d9dd5f51-894f-46bc-b94e-801f7e2ec022","","32","","","","","","",""
"2104","","same-different","0","8","185367","0-0","d9dd5f51-894f-46bc-b94e-801f7e2ec022","","78","2303","different","true","The square is below the circle.","<img src=""img/square.png""></img><br><br><br><img src=""img/circle.png""></img>","32","real"
"3020","","same-different","1","9","199365","0-0","d9dd5f51-894f-46bc-b94e-801f7e2ec022","","67","9249","same","true","The plus is not above the square.","<img src=""img/square.png""></img><br><br><br><img src=""img/plus.png""></img>","32","real"
"2704","","same-different","2","10","206096","0-0","d9dd5f51-894f-46bc-b94e-801f7e2ec022","","78","2301","different","true","The plus is above the star.","<img src=""img/star.png""></img><br><br><br><img src=""img/plus.png""></img>","32","real"
"1536","","same-different","3","11","213054","0-0","d9dd5f51-894f-46bc-b94e-801f7e2ec022","","67","3721","same","true","The star is above the square.","<img src=""img/star.png""></img><br><br><br><img src=""img/square.png""></img>","32","real"
"3169","","same-different","4","12","219789","0-0","d9dd5f51-894f-46bc-b94e-801f7e2ec022","","67","1853","same","true","The star is above the square.","<img src=""img/star.png""></img><br><br><br><img src=""img/square.png""></img>","32","real"
"2130","","same-different","5","13","225744","0-0","d9dd5f51-894f-46bc-b94e-801f7e2ec022","","78","2107","different","true","The square is below the circle.","<img src=""img/square.png""></img><br><br><br><img src=""img/circle.png""></img>","32","real"
"2042","","same-different","6","14","233031","0-0","d9dd5f51-894f-46bc-b94e-801f7e2ec022","","78","3555","different","true","The plus is above the star.","<img src=""img/star.png""></img><br><br><br><img src=""img/plus.png""></img>","32","real"
"4597","","same-different","7","15","245437","0-0","d9dd5f51-894f-46bc-b94e-801f7e2ec022","","67","6106","same","true","The plus is not below the circle.","<img src=""img/plus.png""></img><br><br><br><img src=""img/circle.png""></img>","32","real"
"2992","","same-different","8","16","252748","0-0","d9dd5f51-894f-46bc-b94e-801f7e2ec022","","78","2641","different","true","The square is not below the circle.","<img src=""img/circle.png""></img><br><br><br><img src=""img/square.png""></img>","32","real"
"7835","","same-different","9","17","264819","0-0","d9dd5f51-894f-46bc-b94e-801f7e2ec022","","78","2544","different","true","The circle is not above the square.","<img src=""img/circle.png""></img><br><br><br><img src=""img/square.png""></img>","32","real"
"4126","","same-different","10","18","274703","0-0","d9dd5f51-894f-46bc-b94e-801f7e2ec022","","67","4072","same","true","The plus is not above the square.","<img src=""img/square.png""></img><br><br><br><img src=""img/plus.png""></img>","32","real"
"1524","","same-different","11","19","279980","0-0","d9dd5f51-894f-46bc-b94e-801f7e2ec022","","67","2042","same","true","The square is below the star.","<img src=""img/star.png""></img><br><br><br><img src=""img/square.png""></img>","32","real"
"1846","","same-different","12","20","285878","0-0","d9dd5f51-894f-46bc-b94e-801f7e2ec022","","78","2380","different","true","The circle is not above the square.","<img src=""img/circle.png""></img><br><br><br><img src=""img/square.png""></img>","32","real"
"2669","","same-different","13","21","293110","0-0","d9dd5f51-894f-46bc-b94e-801f7e2ec022","","67","2833","same","true","The plus is not below the circle.","<img src=""img/plus.png""></img><br><br><br><img src=""img/circle.png""></img>","32","real"
"5176","","same-different","14","22","303397","0-0","d9dd5f51-894f-46bc-b94e-801f7e2ec022","","78","3407","different","true","The square is not below the circle.","<img src=""img/circle.png""></img><br><br><br><img src=""img/square.png""></img>","32","real"
"3133","","same-different","15","23","311176","0-0","d9dd5f51-894f-46bc-b94e-801f7e2ec022","","67","2914","same","true","The square is below the star.","<img src=""img/star.png""></img><br><br><br><img src=""img/square.png""></img>","32","real"
"8203","{""What is your age? (numeric)"":""20"",""What is your gender? (\""Male\""/\""Female\"")"":""female""}","survey-text","0","0","8219","0-0","eaf44b2a-e02a-407a-be17-cdf871cabcdb","","","","","","","","",""
"29258","","instructions","0","1","38492","0-0","eaf44b2a-e02a-407a-be17-cdf871cabcdb","[{""page_index"":0,""viewing_time"":29256}]","","","","","","","",""
"2540","","text","0","2","42163","0-0","eaf44b2a-e02a-407a-be17-cdf871cabcdb","","40","","","","","","",""
"2570","","same-different","0","3","53465","0-0","eaf44b2a-e02a-407a-be17-cdf871cabcdb","","67","6907","same","true","The square is above the plus.","<img src=""img/square.png""></img><br><br><br><img src=""img/plus.png""></img>","40","demo"
"2172","","same-different","1","4","62819","0-0","eaf44b2a-e02a-407a-be17-cdf871cabcdb","","78","5368","different","true","The star is below the square.","<img src=""img/star.png""></img><br><br><br><img src=""img/square.png""></img>","40","demo"
"2626","","same-different","2","5","73192","0-0","eaf44b2a-e02a-407a-be17-cdf871cabcdb","","67","5979","same","true","The square is not below the circle.","<img src=""img/square.png""></img><br><br><br><img src=""img/circle.png""></img>","32","demo"
"1376","","same-different","3","6","82625","0-0","eaf44b2a-e02a-407a-be17-cdf871cabcdb","","78","6329","different","true","The plus is not above the star.","<img src=""img/plus.png""></img><br><br><br><img src=""img/star.png""></img>","78","demo"
"1658","","text","0","7","85452","0-0","eaf44b2a-e02a-407a-be17-cdf871cabcdb","","32","","","","","","",""
"3297","","same-different","0","8","92186","0-0","eaf44b2a-e02a-407a-be17-cdf871cabcdb","","67","1594","same","true","The square is below the circle.","<img src=""img/circle.png""></img><br><br><br><img src=""img/square.png""></img>","32","real"
"1859","","same-different","1","9","101028","0-0","eaf44b2a-e02a-407a-be17-cdf871cabcdb","","78","5211","different","true","The square is not above the star.","<img src=""img/square.png""></img><br><br><br><img src=""img/star.png""></img>","32","real"
"1547","","same-different","2","10","109310","0-0","eaf44b2a-e02a-407a-be17-cdf871cabcdb","","67","4972","same","true","The circle is not below the plus.","<img src=""img/circle.png""></img><br><br><br><img src=""img/plus.png""></img>","32","real"
"610","","same-different","3","11","114057","0-0","eaf44b2a-e02a-407a-be17-cdf871cabcdb","","67","2391","same","true","The circle is above the plus.","<img src=""img/circle.png""></img><br><br><br><img src=""img/plus.png""></img>","32","real"
"469","","same-different","4","12","120215","0-0","eaf44b2a-e02a-407a-be17-cdf871cabcdb","","67","3891","same","true","The circle is above the plus.","<img src=""img/circle.png""></img><br><br><br><img src=""img/plus.png""></img>","32","real"
"943","","same-different","5","13","125067","0-0","eaf44b2a-e02a-407a-be17-cdf871cabcdb","","78","2111","different","true","The plus is above the circle.","<img src=""img/circle.png""></img><br><br><br><img src=""img/plus.png""></img>","32","real"
"2766","","same-different","6","14","131611","0-0","eaf44b2a-e02a-407a-be17-cdf871cabcdb","","67","1945","same","true","The square is below the circle.","<img src=""img/circle.png""></img><br><br><br><img src=""img/square.png""></img>","32","real"
"752","","same-different","7","15","138395","0-0","eaf44b2a-e02a-407a-be17-cdf871cabcdb","","67","4265","same","true","The square is not above the circle.","<img src=""img/circle.png""></img><br><br><br><img src=""img/square.png""></img>","32","real"
"734","","same-different","8","16","148246","0-0","eaf44b2a-e02a-407a-be17-cdf871cabcdb","","67","7320","same","true","The square is not above the circle.","<img src=""img/circle.png""></img><br><br><br><img src=""img/square.png""></img>","32","real"
"1327","","same-different","9","17","152673","0-0","eaf44b2a-e02a-407a-be17-cdf871cabcdb","","78","1328","different","true","The plus is below the circle.","<img src=""img/plus.png""></img><br><br><br><img src=""img/circle.png""></img>","32","real"
"1243","","same-different","10","18","157124","0-0","eaf44b2a-e02a-407a-be17-cdf871cabcdb","","78","1504","same","false","The circle is not below the plus.","<img src=""img/circle.png""></img><br><br><br><img src=""img/plus.png""></img>","32","real"
"1120","","same-different","11","19","162289","0-0","eaf44b2a-e02a-407a-be17-cdf871cabcdb","","78","2297","different","true","The square is not below the circle.","<img src=""img/circle.png""></img><br><br><br><img src=""img/square.png""></img>","32","real"
"1681","","same-different","12","20","167357","0-0","eaf44b2a-e02a-407a-be17-cdf871cabcdb","","67","1558","different","false","The square is not above the star.","<img src=""img/square.png""></img><br><br><br><img src=""img/star.png""></img>","32","real"
"908","","same-different","13","21","174269","0-0","eaf44b2a-e02a-407a-be17-cdf871cabcdb","","78","4238","different","true","The plus is below the circle.","<img src=""img/plus.png""></img><br><br><br><img src=""img/circle.png""></img>","32","real"
"1173","","same-different","14","22","179815","0-0","eaf44b2a-e02a-407a-be17-cdf871cabcdb","","78","2580","different","true","The plus is above the circle.","<img src=""img/circle.png""></img><br><br><br><img src=""img/plus.png""></img>","32","real"
"1142","","same-different","15","23","184683","0-0","eaf44b2a-e02a-407a-be17-cdf871cabcdb","","78","1933","different","true","The square is not below the circle.","<img src=""img/circle.png""></img><br><br><br><img src=""img/square.png""></img>","32","real"
"12381","{""What is your age? (numeric)"":""53"",""What is your gender? (\""Male\""/\""Female\"")"":""female""}","survey-text","0","0","12387","0-0","f7b98c24-4633-472c-80d1-3bf49ca641af","","","","","","","","",""
"4363","","instructions","0","1","17752","0-0","f7b98c24-4633-472c-80d1-3bf49ca641af","[{""page_index"":0,""viewing_time"":4363}]","","","","","","","",""
"2465","","text","0","2","21307","0-0","f7b98c24-4633-472c-80d1-3bf49ca641af","","68","","","","","","",""
"6549","","same-different","0","3","34021","0-0","f7b98c24-4633-472c-80d1-3bf49ca641af","","67","4446","same","true","The square is above the plus.","<img src=""img/square.png""></img><br><br><br><img src=""img/plus.png""></img>","83","demo"
"2667","","same-different","1","4","46525","0-0","f7b98c24-4633-472c-80d1-3bf49ca641af","","78","8135","different","true","The star is below the square.","<img src=""img/star.png""></img><br><br><br><img src=""img/square.png""></img>","88","demo"
"2692","","same-different","2","5","55444","0-0","f7b98c24-4633-472c-80d1-3bf49ca641af","","67","4503","same","true","The square is not below the circle.","<img src=""img/square.png""></img><br><br><br><img src=""img/circle.png""></img>","78","demo"
"3684","","same-different","3","6","66053","0-0","f7b98c24-4633-472c-80d1-3bf49ca641af","","67","5151","different","false","The plus is not above the star.","<img src=""img/plus.png""></img><br><br><br><img src=""img/star.png""></img>","78","demo"
"7183","","text","0","7","74356","0-0","f7b98c24-4633-472c-80d1-3bf49ca641af","","71","","","","","","",""
"3702","","same-different","0","8","90831","0-0","f7b98c24-4633-472c-80d1-3bf49ca641af","","67","10976","same","true","The square is not above the plus.","<img src=""img/plus.png""></img><br><br><br><img src=""img/square.png""></img>","71","real"
"2444","","same-different","1","9","97144","0-0","f7b98c24-4633-472c-80d1-3bf49ca641af","","67","2079","same","true","The circle is above the plus.","<img src=""img/circle.png""></img><br><br><br><img src=""img/plus.png""></img>","71","real"
"3459","","same-different","2","10","107727","0-0","f7b98c24-4633-472c-80d1-3bf49ca641af","","78","5342","different","true","The plus is not above the square.","<img src=""img/plus.png""></img><br><br><br><img src=""img/square.png""></img>","71","real"
"7373","","same-different","3","11","117016","0-0","f7b98c24-4633-472c-80d1-3bf49ca641af","","67","87","different","false","The square is not below the plus.","<img src=""img/plus.png""></img><br><br><br><img src=""img/square.png""></img>","71","real"
"3243","","same-different","4","12","126159","0-0","f7b98c24-4633-472c-80d1-3bf49ca641af","","78","4102","different","true","The plus is not above the square.","<img src=""img/plus.png""></img><br><br><br><img src=""img/square.png""></img>","66","real"
"2411","","same-different","5","13","138847","0-0","f7b98c24-4633-472c-80d1-3bf49ca641af","","78","8503","different","true","The square is not below the plus.","<img src=""img/plus.png""></img><br><br><br><img src=""img/square.png""></img>","66","real"
"2915","","same-different","6","14","146239","0-0","f7b98c24-4633-472c-80d1-3bf49ca641af","","67","2687","same","true","The circle is below the star.","<img src=""img/star.png""></img><br><br><br><img src=""img/circle.png""></img>","66","real"
"2107","","same-different","7","15","152466","0-0","f7b98c24-4633-472c-80d1-3bf49ca641af","","67","2339","same","true","The circle is below the star.","<img src=""img/star.png""></img><br><br><br><img src=""img/circle.png""></img>","70","real"
"4235","","same-different","8","16","161498","0-0","f7b98c24-4633-472c-80d1-3bf49ca641af","","67","2975","same","true","The plus is not below the star.","<img src=""img/plus.png""></img><br><br><br><img src=""img/star.png""></img>","70","real"
"1691","","same-different","9","17","167442","0-0","f7b98c24-4633-472c-80d1-3bf49ca641af","","78","2510","different","true","The circle is above the star.","<img src=""img/star.png""></img><br><br><br><img src=""img/circle.png""></img>","70","real"
"1819","","same-different","10","18","173922","0-0","f7b98c24-4633-472c-80d1-3bf49ca641af","","67","2919","same","true","The circle is above the plus.","<img src=""img/circle.png""></img><br><br><br><img src=""img/plus.png""></img>","71","real"
"2387","","same-different","11","19","179681","0-0","f7b98c24-4633-472c-80d1-3bf49ca641af","","78","1583","different","true","The star is below the plus.","<img src=""img/star.png""></img><br><br><br><img src=""img/plus.png""></img>","71","real"
"1643","","same-different","12","20","184802","0-0","f7b98c24-4633-472c-80d1-3bf49ca641af","","78","1718","different","true","The circle is above the star.","<img src=""img/star.png""></img><br><br><br><img src=""img/circle.png""></img>","71","real"
"3299","","same-different","13","21","198169","0-0","f7b98c24-4633-472c-80d1-3bf49ca641af","","67","8295","same","true","The plus is not below the star.","<img src=""img/plus.png""></img><br><br><br><img src=""img/star.png""></img>","71","real"
"2675","","same-different","14","22","204914","0-0","f7b98c24-4633-472c-80d1-3bf49ca641af","","67","2296","same","true","The square is not above the plus.","<img src=""img/plus.png""></img><br><br><br><img src=""img/square.png""></img>","70","real"
"1596","","same-different","15","23","210292","0-0","f7b98c24-4633-472c-80d1-3bf49ca641af","","78","2033","different","true","The star is below the plus.","<img src=""img/star.png""></img><br><br><br><img src=""img/plus.png""></img>","70","real"
